t(min)   Tvap(°C)   TckIn(°C)   TckSld(°C)   TckOut(°C)   Mvap(t/h)   Nivel(m)   TspIn(°C)   TspSld(°C)
0   377.548   420.25   420.25   420.25   3   0   420.25   420.25   
5   375.21   419.273   420.044   420.222   3   0   408.661   413.903   
10   375.127   418.298   419.85   420.19   3   0   407.74   413.695   
15   375.052   417.326   419.651   420.158   3   0   406.823   413.514   
20   374.979   416.359   419.47   420.126   3   0   405.91   413.324   
25   374.907   415.397   419.292   420.093   3   0   405   413.156   
30   374.836   414.439   419.121   420.061   3   0   404.095   412.983   
35   374.766   413.577   418.946   420.029   3   0   403.1   412.815   
40   374.697   412.66   418.775   419.997   3   0   402.235   412.645   
45   374.628   411.714   418.602   419.964   3   0   401.342   412.479   
50   313.753   410.773   418.432   419.932   8   0   400.453   412.31   
55   312.16   409.408   417.933   419.775   8   0   393.184   410.494   
60   312.022   407.976   417.37   419.666   8   0   391.876   409.952   
65   311.897   406.554   416.839   419.56   8   0   390.576   409.443   
70   311.777   405.14   416.368   419.458   8   0   389.285   408.989   
75   311.661   403.736   415.914   419.355   8   0   388.001   408.553   
80   311.544   402.34   415.466   419.253   8   0   386.725   408.123   
85   311.43   400.908   415.036   419.15   8   0   385.409   407.709   
90   311.315   399.53   414.613   419.048   8   0   384.154   407.302   
95   311.202   398.161   414.191   418.946   8   0   382.902   406.897   
100   311.088   396.801   413.775   418.843   8   0   381.658   406.497   
105   310.976   395.449   413.329   418.741   8   0   380.421   406.119   
110   310.863   394.106   412.853   418.638   8   0   379.193   405.608   
115   310.751   392.771   412.415   418.536   8   0   377.972   405.188   
120   310.64   391.445   411.98   418.433   8   0   376.758   404.769   
125   310.529   390.127   411.555   418.331   8   0   375.552   404.361   
130   310.418   388.818   411.14   418.228   8   0   374.354   403.962   
135   310.308   387.516   410.721   418.126   8   0   373.163   403.559   
140   414.148   386.223   410.29   418.023   0.0504267   0   371.979   403.145   
145   410.443   378.505   410.29   418.023   0.935568   2.75065   116.584   404.279   
150   417.773   366.191   410.29   418.023   0.135297   3.97851   114.739   367.596   
155   231.026   354.43   397.827   418.023   15.2   4.58685   112.942   224.6   
160   409.426   343.036   388.211   418.023   0.155289   4.58173   111.219   141.795   
165   230.857   331.962   376.654   418.023   15.2   4.57626   109.41   208.55   
170   417.029   321.344   361.073   418.023   0.34781   4.68698   107.935   176.775   
175   229.218   311.954   355.976   418.023   15.2   4.97206   106.541   176.45   
180   409.245   303.547   350.495   418.023   0.179772   4.96978   104.86   173.955   
185   228.953   295.005   345.092   418.023   15.2   4.96746   103.43   171.507   
190   409.515   285.25   339.749   418.023   0.1067   4.96468   102.2   169.117   
195   228.781   277.557   334.464   418.023   15.2   4.96243   100.552   166.785   
200   409.316   268.577   329.256   418.023   0.156129   4.96063   99.0518   164.501   
205   399.73   260.705   324.126   418.023   0.807719   5.60733   97.6787   152.308   
210   398.504   253.787   318.148   418.023   0.847481   5.85919   96.5096   150.311   
215   213.231   247.359   312.356   418.023   19.8   5.82423   95.3945   148.332   
220   221.154   241.05   306.796   418.023   14.3866   6.03547   94.2953   146.342   
225   383.199   235.045   301.349   418.023   1.36331   6.03282   93.2276   144.395   
230   416.513   227.562   296.07   418.023   0.371654   6.0695   91.9053   142.462   
235   211.706   220.517   291.009   418.023   19.8   6.30338   90.6405   140.509   
240   360.896   214.516   286.04   418.023   2.02499   6.26209   89.5089   138.597   
245   210.494   209.252   281.14   418.023   19.8   6.57375   88.5195   136.737   
250   407.237   204.172   276.326   418.023   0.258731   6.56778   87.6108   134.92   
255   210.13   199.397   271.602   418.023   19.8   6.56123   86.7128   133.142   
260   407.716   194.766   266.961   418.023   0.151782   6.55807   85.8351   131.406   
265   209.979   190.308   262.405   418.023   19.8   6.55477   84.9813   129.709   
270   407.553   185.962   257.935   418.023   0.171463   6.94323   84.1434   128.051   
275   208.109   181.801   253.549   418.023   19.8   6.93955   83.3308   126.43   
280   407.872   177.679   249.246   418.023   0.0811855   6.93621   82.5245   124.844   
285   207.756   173.761   245.026   418.023   19.8   6.93492   81.7425   123.295   
290   407.909   168.996   240.893   418.023   0.0706134   6.93396   80.7696   121.778   
295   206.866   165.387   236.843   418.023   19.8   7.1332   80.049   120.293   
300   407.893   161.784   232.875   418.023   0.0640008   7.13242   79.3022   118.84   
305   417.577   158.271   229.751   418.023   0.190797   7.51155   78.535   106.961   
310   404.921   154.203   225.004   418.023   0.4524   9.34418   77.7601   105.678   
315   183.836   150.759   220.444   418.023   27.435   9.47541   76.9566   104.414   
320   397.001   147.701   216.001   418.023   0.587286   9.72911   76.3127   103.185   
325   178.779   144.774   211.681   403.237   29.0267   9.81674   75.6889   101.987   
330   384.21   141.883   207.482   403.237   0.735264   10.0558   75.0709   100.818   
335   179.417   139.141   203.394   403.237   27.729   10.2447   74.4761   99.6814   
340   343.455   136.371   199.423   403.237   1.57383   10.432   73.8761   98.571   
345   178.661   133.756   195.559   403.237   35   10.5962   73.2973   97.4898   
350   390.648   130.725   191.806   403.237   0.407037   10.6954   72.7186   96.4338   
355   177.123   128.317   188.156   403.237   35   11.0309   72.1813   95.4043   
360   390.265   125.997   184.606   403.237   0.350886   11.1743   71.6545   94.4004   
365   175.911   123.737   181.157   403.237   27.4985   11.3635   71.1425   93.4203   
370   377.816   121.562   177.802   403.237   0.745273   11.4902   70.6405   92.4644   
375   174.41   119.443   174.541   403.237   27.3995   11.646   70.1532   91.5316   
380   322.221   117.401   171.37   403.237   1.76432   11.8157   69.6734   90.6214   
385   171.074   115.4   168.288   403.237   31.1128   12.011   69.2102   89.7329   
390   326.098   113.492   165.289   403.237   1.58847   12.2054   68.7529   88.866   
395   168.841   111.614   162.375   403.237   34.8339   12.3909   68.3117   88.0198   
400   390.144   109.822   159.54   403.237   0.34114   12.5794   67.8763   87.1939   
405   171.283   108.06   156.783   403.237   35   12.78   67.4565   86.3877   
410   382.526   106.377   154.102   403.237   0.530074   12.9099   67.0422   85.6007   
415   170.039   104.725   151.495   403.237   25.7904   13.1178   66.6418   84.8323   
420   386.358   103.143   148.959   403.237   0.439243   13.1992   66.2478   84.0824   
425   165.983   101.593   146.492   403.237   31.048   13.4089   65.8664   83.3499   
430   383.655   100.281   144.217   403.237   0.295129   16.741   65.2356   78.9767   
435   147.102   98.7915   141.484   403.237   74.75   19.5611   64.873   78.3047   
440   240.46   97.387   138.93   403.237   0.689629   19.5642   64.5105   77.6466   
445   146.767   96.013   136.454   403.237   74.75   19.5767   64.1679   77.0075   
450   249.358   94.7029   134.048   403.237   0.503815   20.1512   63.829   76.3905   
455   143.179   93.6303   132.145   403.237   0.374225   21.9756   58.7356   71.2629   
460   143.179   92.1314   129.644   393.985   0.374225   22.5788   58.3854   70.6869   
465   143.179   90.7476   127.271   384.324   0.374225   23.182   58.0463   70.1245   
470   143.179   89.4079   124.922   374.938   0.374225   23.7852   57.717   69.5589   
475   143.179   88.1111   122.701   365.823   0.374225   24.3884   57.3968   69.0313   
480   143.179   86.856   120.522   356.97   0.374225   24.9916   57.0855   68.4996   
485   143.179   85.6411   118.444   348.372   0.374225   25.5948   56.7828   67.9958   
490   143.179   84.465   116.406   340.026   0.374225   26.198   56.4884   67.4927   
495   143.179   83.3262   114.439   331.928   0.000174058   26.8012   56.2022   67.0093   
500   143.179   83.3262   114.439   331.928   0.1   26.796   63.1988   113.787   

Função objetivo mínima: 506.376
Parâmetros otimizados:
Dp = 4.87135
Le = 1.52129
zd = 4.06523
eps = 0.05
Numero de iterações = 30
Numero de particulas = 100

Pico de vazao de vapor [t/h] = 74.75
Agua total adicionada [kg] = 302495
Vapor total gerado [kg] = 65405.2
Agua acumulada no leito [kg] = 173862
balanco [kg] = 63227.4
errobalanco [%] = 20.902

Tempo: 96940 s
