t(min)   Tvap(°C)   TckIn(°C)   TckSld(°C)   TckOut(°C)   Mvap(t/h)   Nivel(m)   TspIn(°C)   TspSld(°C)
0   430.75   433.4   433.4   433.4   3   0   433.4   433.4   
5   430.643   422.666   432.689   433.388   3   0   422.666   432.437   
10   430.577   412.49   432.062   433.378   3   0   412.49   431.876   
15   430.512   402.837   431.57   433.368   3   0   402.837   431.319   
20   430.454   393.675   431.064   433.359   3   0   393.675   430.862   
25   430.396   384.975   430.635   433.35   3   0   384.975   430.384   
30   412.592   376.711   430.182   433.34   10   0   376.711   429.97   
35   411.804   361.601   428.347   433.171   10   0   361.601   427.73   
40   411.303   347.904   426.761   433.026   10   0   347.904   426.316   
45   410.817   335.468   425.527   432.898   10   0   335.468   424.918   
50   410.391   324.162   424.257   432.768   10   0   324.162   423.778   
55   409.958   313.87   423.189   432.641   10   0   313.87   422.588   
60   409.557   304.489   422.065   432.511   10   0   304.489   421.568   
65   409.149   295.932   421.085   432.38   10   0   295.932   420.49   
70   408.762   288.116   420.049   432.248   10   0   288.116   419.539   
75   408.369   280.973   419.123   432.113   10   0   280.973   418.534   
80   407.99   274.438   418.145   431.979   10   0   274.438   417.627   
85   407.607   268.455   417.255   431.84   10   0   268.455   416.671   
90   407.233   262.975   416.317   431.703   10   0   262.975   415.794   
95   406.859   257.95   415.451   431.562   10   0   257.95   414.872   
100   406.492   253.342   414.542   431.422   10   0   253.342   414.015   
105   406.124   249.113   413.692   431.279   10   0   249.113   413.118   
110   405.762   245.23   412.805   431.136   10   0   245.23   412.276   
115   405.399   241.663   411.968   430.991   10   0   241.663   411.398   
120   405.04   238.385   411.098   430.846   10   0   238.385   410.568   
125   404.681   235.372   410.271   430.698   10   0   235.372   409.706   
130   404.325   232.601   409.416   430.551   10   0   232.601   408.885   
135   430.378   184.672   409.082   430.491   0.0785484   1.65912   178.789   409.073   
140   430.343   131.28   409.081   430.491   0.099116   2.39832   128.476   409.073   
145   430.376   98.2872   409.081   430.491   0.079223   2.9262   97.1221   409.067   
150   430.376   77.8069   409.081   430.491   0.0795505   3.32772   77.4565   409.06   
155   430.375   65.3036   409.08   430.491   0.0799123   3.67289   65.3036   409.047   
160   430.375   58.3061   409.036   430.491   0.0800096   3.95952   58.3061   408.996   
165   430.374   54.5361   408.968   430.491   0.0803955   4.235   54.5361   408.906   
170   430.374   52.4858   408.878   430.491   0.0805261   4.47099   52.4858   408.801   
175   430.374   51.2808   408.808   430.491   0.080674   4.69103   51.2352   407.747   
180   430.374   50.8842   405.142   430.491   0.080836   4.89679   50.7857   397.652   
185   430.373   50.7013   391.526   430.491   0.0810096   5.09039   50.6351   383.253   
190   430.373   50.5928   377.72   430.491   0.0811989   5.27644   50.5298   370.738   
195   358.63   50.5025   366.169   430.491   17.1769   5.43336   50.4515   358.663   
200   429.649   50.4288   354.809   430.491   0.0811863   5.5235   50.3843   348.04   
205   365.964   50.3655   344.466   430.491   14.301   5.63555   50.3279   337.554   
210   429.639   50.3119   334.262   430.491   0.0811798   5.72926   50.2797   327.82   
215   345.773   50.266   324.658   430.491   21.0413   5.85767   50.2386   318.246   
220   429.628   50.227   315.243   430.491   0.0811855   5.94385   50.2035   309.164   
225   429.946   50.1936   306.258   430.491   0.0813845   6.04837   50.1736   300.284   
230   326.343   50.1652   297.49   430.49   30   6.14634   50.1481   291.768   
235   429.746   50.1409   289.058   430.49   0.0813277   6.27067   50.1264   283.473   
240   324.756   50.1202   280.855   430.49   30   6.36352   50.1078   275.472   
245   429.752   50.1025   272.931   430.49   0.0813613   6.45722   50.092   267.692   
250   323.139   50.0875   265.233   430.49   30   6.55034   50.0785   260.171   
255   353.417   50.0746   257.787   430.489   15.937   6.63757   50.0669   252.873   
260   429.583   50.0637   250.565   430.489   0.0812263   6.73061   50.0571   245.813   
265   350.29   50.0544   243.577   430.489   16.4366   6.84187   50.0488   238.969   
270   430.326   50.0444   234.213   430.489   0.10811   7.06055   50.0394   229.442   
275   430.326   50.0367   226.054   430.489   0.108299   7.30602   50.0322   220.856   
280   317.274   50.0302   218.267   430.489   28.4625   7.47708   50.0267   213.58   
285   429.185   50.0252   211.206   430.489   0.138401   7.59157   50.0221   206.52   
290   298.484   50.0209   204.345   430.489   40   7.71375   50.0184   199.971   
295   429.749   50.0176   197.891   430.489   0.108519   7.85576   50.0155   193.645   
300   296.695   50.0148   191.678   430.489   40   7.98744   50.0131   187.657   
305   429.196   50.0109   185.771   430.489   0.10842   8.07496   50.0095   181.906   
310   294.878   50.0084   180.11   430.488   40   8.19802   50.0073   176.425   
315   429.182   50.0084   174.706   430.488   0.108323   8.34518   50.0073   171.178   
320   298.642   50.0084   169.536   430.488   34.3087   8.46475   50.0073   166.165   
325   429.167   50.0084   164.594   430.488   0.108253   8.57492   50.0073   161.372   
330   289.261   50.0084   159.869   430.488   40   8.71875   50.0073   156.787   
335   429.167   50.0084   155.349   430.488   0.107801   8.81104   50.0073   152.403   
340   287.334   50.0084   151.028   430.488   40   8.94686   50.0073   148.209   
345   429.351   50.0084   146.894   430.488   0.108474   9.0729   50.0073   144.198   
350   285.378   50.0084   142.94   430.487   40   9.19728   50.0073   140.359   
355   429.108   50.0084   139.155   430.487   0.108399   9.30171   50.0073   136.687   
360   322.964   50.0084   135.535   430.487   17.3555   9.42475   50.0073   133.172   
365   429.092   50.0084   132.069   430.487   0.108331   9.55168   50.0073   129.808   
370   284.222   50.0084   128.753   430.487   36.0471   9.66966   50.0073   126.588   
375   429.077   50.0084   125.577   430.487   0.108269   9.77898   50.0073   123.504   
380   277.267   50.0084   122.537   430.487   40   9.89965   50.0073   120.552   
385   429.076   50.0084   119.625   430.486   0.107824   10.0073   50.0073   117.724   
390   429.043   50.0084   116.836   430.484   0.10836   10.1569   50.0073   115.015   
395   429.231   50.0047   109.618   430.484   0.431429   10.7553   50.0036   106.329   
400   429.342   50.0047   101.901   430.484   0.342302   11.7186   50.0036   99.7233   
405   426.29   50.0047   97.1995   430.484   0.344214   12.623   50.0036   94.7038   
410   204.326   50.0047   93.1388   430.483   127   13.0713   50.0036   91.1273   
415   425.339   50.0047   89.906   430.467   0.344547   13.6743   50.0036   87.8669   
420   193.5   50.0047   86.8863   430.438   105.908   14.2674   50.0036   85.1136   
425   420.934   50.0047   84.2367   430.436   0.344468   14.7045   50.0036   82.5257   
430   186.121   50.0046   81.7476   430.434   127   15.1716   50.0036   80.2086   
435   180.263   50.0046   79.4896   430.433   127   15.6402   50.0036   78.036   
440   179.497   50.0046   77.3789   430.424   91.2644   16.2286   50.0036   76.0501   
445   385.477   50.0046   75.4397   430.423   0.440931   16.5709   50.0036   74.1969   
450   173.772   50.0046   73.6337   430.368   70.8572   17.1837   50.0036   72.4886   
455   166.736   50.0046   71.9654   430.343   67.5136   17.7202   50.0036   70.8989   
460   305.798   50.0046   70.4145   430.251   0.344504   18.2807   50.0036   69.4279   
465   237.013   50.0046   68.9779   430.199   0.344313   18.8442   50.0036   68.0606   
470   145.638   50.0046   67.6433   430.086   79.3657   19.3554   50.0036   66.7929   
475   143.179   50.0046   66.4053   234.926   0   19.7464   50.0036   65.615   
480   143.179   50.0046   65.2553   223.471   0.221054   19.9599   50.0036   64.5218   
485   143.179   50.0046   64.1876   215.7   0.221054   20.2323   50.0036   63.506   
490   143.179   50.0046   63.1955   208.248   0.221054   20.5047   50.0036   62.5625   
495   143.179   50.0046   62.274   201.226   0.221054   20.7771   50.0036   61.6857   
500   143.179   50.0046   61.4175   194.448   0.221054   21.0494   50.0036   60.8708   
505   143.179   50.0046   60.6216   187.958   0.221054   21.3218   50.0036   60.1134   
514   143.179   50.0046   59.3275   176.943   0.221054   21.8121   50.0036   58.8818   

Função objetivo mínima: 919.892
Parâmetros otimizados:
Dp = 0.1
mhc = 0.0300096
mhl = 0
mhe = 4.04536
Numero de iterações = 20
Numero de particulas = 100

Pico de vazao de vapor [t/h] = 127
Agua total adicionada [kg] = 409233
Vapor total gerado [kg] = 107405
Agua acumulada no leito [kg] = 366917
balanco [kg] = -65088.5
errobalanco [%] = -15.905

Tempo: 20375 s
