t(min)   Tvap(°C)   TckIn(°C)   TckSld(°C)   TckOut(°C)   Mvap(t/h)   Nivel(m)   TspIn(°C)   TspSld(°C)
0   387.225   433.4   433.4   433.4   3   0   433.4   433.4   
5   384.393   431.905   433.108   433.361   3   0   413.813   425.782   
10   384.281   430.152   432.836   433.316   3   0   412.214   425.49   
15   384.177   428.412   432.56   433.271   3   0   410.626   425.24   
20   384.075   426.685   432.315   433.226   3   0   409.049   424.984   
25   383.975   424.969   432.063   433.181   3   0   407.484   424.75   
30   303.641   423.229   431.827   433.136   10   0   405.893   424.509   
35   301.627   420.789   431.208   432.861   10   0   388.622   422.097   
40   301.447   417.997   430.588   432.674   10   0   386.276   421.504   
45   301.279   415.236   429.992   432.496   10   0   383.955   420.934   
50   301.112   412.489   429.409   432.331   10   0   381.643   420.377   
55   300.952   409.789   428.835   432.165   10   0   379.372   419.828   
60   300.793   407.12   428.267   432.001   10   0   377.126   419.286   
65   300.636   404.481   427.703   431.836   10   0   374.904   418.746   
70   300.478   401.872   427.148   431.671   10   0   372.707   418.216   
75   300.322   399.292   426.486   431.507   10   0   370.534   417.669   
80   300.164   396.741   425.933   431.342   10   0   368.384   417.052   
85   300.009   394.219   425.388   431.178   10   0   366.258   416.531   
90   299.854   391.709   424.832   431.013   10   0   364.139   416   
95   299.7   389.244   424.277   430.849   10   0   362.059   415.469   
100   299.547   386.807   423.722   430.684   10   0   360.002   414.94   
105   299.394   384.397   423.167   430.52   10   0   357.968   414.409   
110   299.242   382.015   422.613   430.356   10   0   355.956   413.879   
115   299.089   379.66   422.069   430.191   10   0   353.966   413.359   
120   298.937   377.332   421.543   430.027   10   0   351.998   412.856   
125   298.784   375.03   421.021   429.862   10   0   350.052   412.358   
130   298.63   372.737   420.509   429.698   10   0   348.111   411.867   
135   -4322.49   370.626   419.039   429.632   8.14041   0.435966   109.724   120.415   
140   -3470.76   358.304   419.036   429.632   9.36916   0.892864   108.137   154.537   
145   -2734.03   343.81   417.836   426.446   15.2833   1.22321   106.005   147.263   
150   -2498.01   330.351   402.048   425.828   16.4843   1.46856   104.149   150.007   
155   211.418   319.357   378.786   420.42   17.3251   1.67255   102.581   146.713   
160   -47287.5   309.105   351.981   420.419   0.0489072   1.89251   101.069   140.942   
165   -5459.41   296.783   347.867   420.301   4.73619   2.14868   99.2643   142.157   
170   -4090.06   286.228   341.944   420.301   7.1471   2.34468   97.8702   141.823   
175   233.943   277.166   333.368   420.301   10.7492   2.51411   96.5116   140.897   
180   242.878   268.668   324.984   420.301   9.1524   2.66741   95.1297   139.992   
185   -15059   258.328   315.621   420.301   0.148179   2.81326   93.4771   134.924   
190   -16946   250.368   315.621   341.829   4.66213   3.012   92.0918   139.97   
195   -3722.39   242.824   313.453   341.829   11.9181   3.17227   90.8864   139.057   
200   270.225   235.658   304.623   341.829   5.8159   3.3006   89.7196   138.732   
205   -29605.9   227.361   296.981   341.829   0.0491446   3.4367   88.5446   135.559   
210   -2391.99   220.811   296.981   341.829   5.49218   3.6075   87.4405   137.543   
215   -1366.4   214.344   293.69   341.829   14.2892   3.73993   86.3791   138.655   
220   -900.449   208.29   286.332   341.829   4.71695   3.85231   85.2885   138.594   
225   -1198.38   202.068   277.88   341.829   16.8801   3.96445   84.0899   136.964   
230   -131.836   195.383   269.684   341.745   6.28702   4.06903   83.0653   136.927   
235   199.426   189.658   261.695   341.745   16.6954   4.16931   81.9037   135.217   
240   -52315.3   184.518   258.934   341.745   0.0493729   4.31046   80.9864   134.631   
245   -774.69   179.619   258.667   341.745   13.0291   4.43577   80.1135   136.684   
250   -594.16   174.789   251.255   341.619   8.34672   4.54184   79.2237   135.465   
255   -754.574   170.207   244.759   341.619   14.2331   4.64831   78.4066   135.873   
260   -654.753   164.763   237.776   341.619   7.11612   4.75289   77.4837   134.297   
265   -432.054   160.541   232.185   341.619   15.8322   4.8491   76.6096   133.861   
270   -386.196   156.538   223.005   341.619   17.1737   4.97341   75.6418   129.294   
275   -50198.8   152.65   218.666   341.579   0.0657993   5.17078   74.9072   101.447   
280   -835.456   148.764   213.623   296.018   15.6406   5.30664   74.141   100.053   
285   -828.856   145.058   208.733   293.523   17.5928   5.43131   73.4416   98.6999   
290   -830.035   141.557   203.992   288.022   15.699   5.55626   72.7518   97.3868   
295   -826.293   138.238   199.394   283.29   17.3818   5.68126   72.0886   96.1129   
300   -744.945   134.951   194.935   281.258   19.3816   5.80286   71.4297   94.8768   
305   -669.271   131.862   190.618   280.71   19.9259   5.90222   70.7987   93.6751   
310   -665.852   128.23   186.427   280.693   18.9909   5.99509   70.1376   92.5108   
315   -578.235   125.082   182.37   280.64   24.9612   6.07541   69.3791   91.3779   
320   -556.827   122.31   178.437   280.588   22.9651   6.14592   68.8187   90.2786   
325   -42233   118.984   174.62   280.588   0.0659761   6.24238   68.2324   89.2129   
330   -5603   116.396   170.922   247.591   14.5909   6.42484   67.6255   88.1781   
335   -891.811   113.908   167.338   247.59   23.6714   6.53455   67.02   87.173   
340   -892.121   111.248   163.866   247.59   14.7509   6.6397   66.4135   86.1968   
345   -878.543   108.689   160.501   247.59   25.3152   6.74886   65.9688   85.2483   
350   -902.062   106.595   157.242   247.59   14.6005   6.85309   65.4899   84.3266   
355   -847.803   104.527   154.082   247.59   26.2222   6.96069   65.0334   83.4315   
360   -657.068   102.583   151.022   247.59   29.2302   7.0468   64.5824   82.5614   
365   -658.906   100.669   148.055   247.59   32.1825   7.1226   64.1516   81.7165   
370   -647.959   98.8624   145.18   247.59   32.003   7.19386   63.727   80.8957   
375   -652.23   97.0944   142.396   247.59   30.9871   7.25346   63.3202   80.0975   
380   -645.647   95.4142   139.696   247.59   32.4879   7.30818   62.9207   79.3225   
385   -630.426   93.7785   137.081   245.55   34.0627   7.36004   62.5363   78.5691   
390   -636.44   92.2153   134.546   245.443   28.2576   7.40663   62.1603   77.8369   
395   -94.8875   90.8427   132.315   241.429   40.1217   7.61518   59.2181   73.1419   
400   -419.053   89.3312   129.3   241.429   86.7753   7.95955   58.8958   72.4657   
405   -291.016   87.8767   126.031   241.429   34.9401   8.30116   58.5854   71.7847   
410   -4025.49   86.4785   123.247   241.429   0.208702   8.89219   58.2858   71.1514   
415   -427.987   85.1344   120.33   241.429   46.7771   9.37236   57.9966   70.4019   
420   -404.993   83.8419   117.043   241.429   76.492   9.74216   57.7175   69.6158   
425   -494.549   82.5989   114.468   241.429   41.7447   10.1124   57.4481   69.0233   
430   -483.145   81.4035   112.071   241.429   66.6963   10.5165   57.1882   68.4554   
435   -629.253   80.2537   109.817   241.429   19.9803   10.8892   56.9373   67.9136   
440   -678.109   79.1477   108.071   241.429   58.7958   11.255   56.6952   67.4786   
445   -777.83   78.0836   106.377   241.429   20.1771   11.5819   56.4615   67.0544   
450   -701.539   77.0599   104.736   241.429   42.5398   11.9017   56.2359   66.6409   
455   -35396.9   76.0748   103.145   241.429   0.129152   12.2929   56.0182   66.2377   
460   -127.466   75.1269   101.603   234.188   0.11274   12.6875   55.8082   65.8446   
465   -10221.4   74.2145   100.106   234.188   0.096144   13.0074   55.6054   65.461   
470   -11602.8   73.3364   98.6567   234.188   16.3353   13.2718   55.4097   65.0875   
475   -13250.7   72.4911   97.251   234.188   0.0792662   13.4966   55.2208   64.7231   
480   -13921.6   71.6774   95.8885   234.187   11.3182   13.7052   55.0386   64.3679   
485   -16892   70.894   94.567   234.187   0.0623112   13.898   54.8627   64.0216   
490   -48168.8   70.1397   93.2853   234.187   0.0537474   14.081   54.6929   63.6838   
495   -37144.1   69.4136   92.0431   177.086   0.0450963   14.248   54.529   63.3547   
500   -8108.24   68.7142   90.838   149.949   0.0450685   14.3944   54.3709   63.0336   
505   -43811.3   68.0407   89.6695   145.274   0.0363472   14.5144   54.2182   62.7206   
514   -12403.6   66.8905   87.6541   46.4895   0.0275187   14.6963   53.9568   62.1766   

Função objetivo mínima: 88.348
Parâmetros otimizados:
Dp = 4.28591
Le = 4.8866
zd = 0.0527525
eps = 0.379423
mhc = 1.31425
mhl = 1.0928
mhe = 4.55585
Numero de iterações = 20
Numero de particulas = 100

Pico de vazao de vapor [t/h] = 91.9186
Agua total adicionada [kg] = 409233
Vapor total gerado [kg] = 113641
Agua acumulada no leito [kg] = 199748
balanco [kg] = 95844.7
errobalanco [%] = 23.4205

Tempo: 99645 s
