t(min)   Tvap(°C)   TckIn(°C)   TckSld(°C)   TckOut(°C)   Mvap(t/h)   Nivel(m)   TspIn(°C)   TspSld(°C)
0   332.669   420.2   420.2   420.2   3   0   420.2   420.2   
5   331.003   419.223   419.732   420.109   3   0   412.778   416.138   
10   330.9   418.19   419.265   420.044   3   0   411.78   415.679   
15   330.805   417.162   418.733   419.981   3   0   410.786   415.158   
20   330.711   416.139   418.226   419.922   3   0   409.797   414.661   
25   330.62   415.121   417.696   419.862   3   0   408.813   414.141   
30   330.53   414.107   417.239   419.803   3   0   407.833   413.693   
35   330.445   413.098   416.838   419.744   3   0   406.858   413.299   
40   330.36   412.094   416.45   419.685   3   0   405.887   412.919   
45   330.276   411.095   416.073   419.626   3   0   404.921   412.549   
50   274.23   410.1   415.697   419.566   8   0   403.96   412.18   
55   273.596   408.618   415.302   419.449   8   0   398.328   411.096   
60   273.477   407.071   414.93   419.325   8   0   396.866   410.779   
65   273.36   405.534   414.546   419.202   8   0   395.414   410.355   
70   273.249   404.009   414.011   419.078   8   0   393.973   409.832   
75   273.139   402.494   413.47   418.954   8   0   392.541   409.303   
80   273.031   400.989   412.923   418.831   8   0   391.119   408.769   
85   272.924   399.495   412.374   418.707   8   0   389.707   408.232   
90   272.823   398.012   411.866   418.584   8   0   388.304   407.736   
95   272.724   396.538   411.373   418.46   8   0   386.912   407.254   
100   272.625   395.075   410.879   418.337   8   0   385.528   406.77   
105   272.527   393.622   410.403   418.212   8   0   384.155   406.305   
110   272.429   392.18   409.933   418.089   8   0   382.79   405.846   
115   272.33   390.747   409.455   417.965   8   0   381.436   405.379   
120   272.232   389.324   408.976   417.842   8   0   380.09   404.911   
125   272.135   387.994   408.511   417.718   8   0   378.562   404.455   
130   272.039   386.59   408.064   417.595   8   0   377.236   404.019   
135   271.944   385.196   407.626   417.471   8   0   375.919   403.591   
140   390.432   383.812   407.192   417.348   0.744722   0   374.612   403.167   
145   220.344   382.727   407.192   417.348   7.44321   0.296891   153.133   178.467   
150   202.609   366.999   405.909   417.335   10.721   0.502338   149.25   269.156   
155   205.572   354.224   405.909   417.33   9.74081   0.654851   146.358   309.38   
160   205.476   339.764   405.909   417.327   9.76323   0.78327   143.257   326.856   
165   201.771   326.135   390.005   417.327   10.499   0.880793   139.324   320.505   
170   200.079   313.185   373.729   417.218   10.9708   0.971855   136.408   310.534   
175   198.211   300.723   358.985   417.115   11.3191   1.0401   133.523   298.573   
180   196.311   290.725   344.302   417.115   11.9626   1.09881   130.655   286.98   
185   193.399   281.435   329.814   417.114   13.1234   1.15501   128.247   275.198   
190   -6010.58   272.67   318.461   417.111   0.347393   1.23969   126   166.032   
195   220.605   264.053   318.461   417.111   6.73823   1.41779   123.699   134.102   
200   209.145   255.995   318.461   417.111   8.36003   1.53723   121.605   175.831   
205   187.225   246.672   318.461   417.111   15.4108   1.66917   119.344   148.907   
210   204.283   238.487   318.461   417.111   9.09865   1.77762   116.792   159.411   
215   183.051   231.404   318.458   417.111   17.9271   1.86668   114.825   143.382   
220   202.095   224.702   318.355   417.111   9.38963   1.93992   112.977   137.283   
225   181.792   218.158   315.978   417.111   18.5243   2.01864   111.114   151.017   
230   195.463   211.993   308.794   417.111   10.995   2.08174   109.382   173.5   
235   181.166   205.949   296.589   417.111   19.1062   2.15137   107.621   166.935   
240   193.044   200.273   287.934   417.111   11.5845   2.21191   105.993   151.12   
245   181.246   194.684   282   417.111   18.5105   2.27298   104.33   155.696   
250   191.32   189.453   276.106   417.111   12.2226   2.32718   102.798   149.493   
255   181.204   184.33   270.787   417.111   18.5457   2.38766   101.245   161.242   
260   193.401   179.501   266.438   417.111   11.2107   2.43921   99.795   144.056   
265   182.227   174.804   262.492   417.111   17.1756   2.49547   98.3483   144.113   
270   195.232   170.341   258.62   417.111   10.6171   2.54711   96.9766   141.492   
275   416.794   166.014   255.315   417.111   0.0962928   2.61241   95.6202   150.426   
280   317.015   161.885   255.315   417.111   1.79103   2.78231   94.3232   154.618   
285   193.406   157.898   255.299   417.111   10.9492   2.91163   93.0529   163.981   
290   251.268   154.075   255.299   417.111   3.67981   3.02049   91.8264   124.894   
295   185.771   150.393   255.299   417.111   13.8477   3.11919   90.6315   163.016   
300   233.742   146.855   255.299   417.111   4.6042   3.2101   89.4751   130.623   
305   174.406   143.479   255.299   417.111   23.6356   3.31186   88.3224   161.858   
310   196.954   139.676   255.298   417.111   9.02652   3.45935   87.1548   121.139   
315   170.385   136.11   255.297   417.111   29.4875   3.60296   85.7964   160.557   
320   192.554   133.061   255.292   417.111   9.93481   3.71534   84.7515   124.322   
325   170.511   130.174   255.283   417.111   28.0522   3.83634   83.7669   161.052   
330   191.223   127.377   255.261   417.111   10.1075   3.9457   82.7977   126.514   
335   170.132   124.693   255.217   417.111   27.8117   4.06159   81.8629   161.205   
340   188.407   122.105   255.137   417.111   10.782   4.16735   80.9524   127.666   
345   168.854   119.616   254.977   417.111   29.8029   4.27935   80.0704   161.591   
350   191.654   117.211   254.725   417.111   9.5173   4.38037   79.2098   127.277   
355   169.046   114.896   254.039   417.111   28.0797   4.48851   78.3756   162.218   
360   188.84   112.672   253.092   417.111   10.1075   4.58641   77.5683   124.159   
365   169.028   110.526   248.255   417.111   27.0481   4.69124   76.7822   129.636   
370   184.058   108.46   241.299   417.111   11.6016   4.7882   76.0195   127.382   
375   167.354   106.468   234.667   417.111   30.0685   4.8889   75.2785   125.198   
380   184.458   104.55   228.31   417.111   11.1374   4.98723   74.5598   123.084   
385   167.982   102.7   222.207   417.111   27.3885   5.09963   73.8611   121.039   
390   183.321   100.917   216.355   417.111   11.0579   5.21925   73.1826   119.059   
395   170.455   99.1977   210.729   417.111   21.7538   5.3573   72.5236   117.147   
400   194.65   97.5404   205.337   417.111   7.66493   5.50222   71.8838   115.289   
405   174.071   95.9422   200.144   417.111   16.0597   5.65877   71.2622   113.499   
410   188.685   94.4012   195.171   417.111   8.61745   5.81964   70.6586   111.756   
415   174.696   92.9108   190.375   417.111   15.0213   5.98887   70.0704   110.079   
420   192.236   91.4785   185.782   417.111   7.6192   6.16161   69.5017   108.445   
425   184.515   90.0958   181.352   417.111   9.36002   6.34469   68.9487   106.871   
430   173.909   88.6722   177.1   416.889   13.5155   6.73238   68.0437   102.145   
435   172.473   87.2898   172.617   416.871   13.5155   7.16152   67.4857   100.509   
440   171.077   85.9628   166.796   416.555   13.5155   7.5893   66.9419   98.7347   
445   167.007   84.6808   163.09   416.014   15.3206   8.01206   66.414   97.2957   
450   165.587   83.4453   159.639   415.185   15.3206   8.4308   65.9015   96.1075   
455   191.947   82.3702   156.838   414.958   4.91281   9.10834   60.3362   91.3416   
460   383.719   81.1282   152.102   414.958   0.319824   10.5693   59.8604   89.8018   
465   172.932   79.9255   148.199   414.958   6.36007   11.7068   59.4114   88.6668   
470   398.685   78.7674   144.891   414.953   0.224288   12.6776   58.9769   87.5458   
475   404.433   77.6512   141.694   414.949   0.182707   13.555   58.5568   86.4552   
480   409.938   76.5754   138.616   414.948   0.134467   14.2391   58.1506   85.3927   
485   412.284   75.5384   135.642   414.947   0.10627   14.7586   57.7577   84.3602   
490   414.083   74.5385   132.776   414.947   0.0732941   15.1267   57.3778   83.3551   
495   414.944   73.5746   130.006   414.947   0.00295272   15.38   57.0103   82.3776   
500   nan   72.897   130.006   414.947   2.40299e-005   15.38   62.2345   119.028   

Função objetivo mínima: 1225.02
Parâmetros otimizados:
Dp = 3.17199
Le = 6
zd = 0.416507
eps = 0.375527
mhc = 0.627605
mhl = 0.447246
mhe = 3.05178
Numero de iterações = 30
Numero de particulas = 100

Pico de vazao de vapor [t/h] = 50.7847
Agua total adicionada [kg] = 302495
Vapor total gerado [kg] = 74900.5
Agua acumulada no leito [kg] = 161854
balanco [kg] = 65740.2
errobalanco [%] = 21.7327

Tempo: 66256 s
