t(min)   Tvap(°C)   TckIn(°C)   TckSld(°C)   TckOut(°C)   Mvap(t/h)   Nivel(m)   TspIn(°C)   TspSld(°C)
0   326.719   370.1   370.1   370.1   3   0   370.1   370.1   
5   324.634   369.047   369.796   370.061   3   0   359.57   365.675   
10   324.541   367.943   369.576   370.019   3   0   358.535   365.426   
15   324.458   366.846   369.374   369.977   3   0   357.507   365.246   
20   324.377   365.755   369.213   369.935   3   0   356.484   365.072   
25   324.298   364.671   369.052   369.893   3   0   355.468   364.923   
30   324.22   363.594   368.907   369.851   3   0   354.458   364.772   
35   324.143   362.524   368.758   369.809   3   0   353.455   364.631   
40   324.066   361.461   368.616   369.766   3   0   352.457   364.488   
45   323.99   360.404   368.473   369.724   3   0   351.466   364.349   
50   323.914   359.411   368.331   369.682   3   0   350.336   364.208   
55   323.839   358.367   368.189   369.64   3   0   349.357   364.069   
60   323.763   357.33   368.048   369.597   3   0   348.385   363.929   
65   323.687   356.299   367.906   369.555   3   0   347.419   363.79   
70   323.612   355.274   367.764   369.513   3   0   346.459   363.651   
75   271.615   354.256   367.632   369.473   8   0   339.61   362.407   
80   271.481   352.725   367.025   369.334   8   0   338.284   361.915   
85   271.352   351.148   366.526   369.206   8   0   336.868   361.434   
90   271.228   349.586   366.009   369.094   8   0   335.466   360.95   
95   271.107   348.038   365.505   368.98   8   0   334.075   360.456   
100   270.99   346.504   365.013   368.872   8   0   332.698   359.977   
105   270.876   344.985   364.561   368.761   8   0   331.333   359.54   
110   270.763   343.479   364.159   368.652   8   0   329.98   359.136   
115   270.653   341.988   363.768   368.543   8   0   328.64   358.76   
120   270.543   340.51   363.38   368.434   8   0   327.311   358.385   
125   270.435   339.046   362.991   368.325   8   0   325.995   358.01   
130   270.328   337.595   362.602   368.215   8   0   324.691   357.635   
135   249.107   336.158   362.297   368.114   6.19992   0.170885   149.118   355.172   
140   262.608   327.34   362.296   368.114   4.46946   1.5384   105.774   301.979   
145   268.852   313.76   361.947   368.114   3.75997   2.25495   103.813   146.382   
150   240.377   303.056   336.669   368.113   5.33239   2.76165   102.191   143.035   
155   254.439   292.981   334.459   368.113   4.13782   3.20692   100.593   143.319   
160   225.293   281.968   327.819   368.109   6.01528   3.56831   98.5456   143.028   
165   210.045   271.253   322.241   368.105   7.34965   3.88015   96.9555   143.014   
170   282.305   262.469   319.514   367.934   2.4628   4.18375   95.5341   142.433   
175   227.079   252.132   315.134   367.926   5.00871   4.45477   93.8472   143.192   
180   236.378   242.518   310.632   367.926   4.25041   4.73761   92.2808   140.895   
185   202.433   234.115   304.418   367.926   6.94248   5.00116   90.8416   141.469   
190   185.506   225.743   296.38   367.918   9.8379   5.23822   89.4798   141.021   
195   344.192   217.665   287.649   367.917   0.737373   5.46664   88.2078   137.994   
200   186.372   210.875   284.365   367.917   8.85302   5.69071   86.778   139.359   
205   224.868   204.292   276.141   367.917   3.9902   5.91169   85.6317   137.168   
210   179.358   197.864   265.449   367.915   10.3408   6.14887   84.3711   135.289   
215   170.798   190.739   242.056   367.898   13.9343   6.36574   83.0741   131.932   
220   167.081   185.208   232.383   367.885   16.3381   6.56072   82.0511   104.443   
225   196.972   178.871   226.243   367.813   6.32533   6.80023   81.0379   102.876   
230   367.525   173.859   220.323   367.813   0.0903707   7.0168   80.0852   101.36   
235   180.814   168.997   214.623   367.813   9.92069   7.25247   79.1654   99.8895   
240   367.621   164.41   209.121   367.813   0.0871022   7.4656   78.2625   98.4684   
245   187.291   159.853   203.816   367.743   8.27969   7.68527   77.4002   97.0924   
250   183.73   155.633   198.715   367.688   9.05753   7.86988   76.5259   95.7545   
255   367.509   151.219   193.797   367.688   0.0815335   8.06091   75.521   94.4583   
260   183.436   147.146   189.046   367.688   9.24184   8.27131   74.6845   93.2061   
265   192.946   143.188   184.466   367.688   7.17157   8.44738   73.9133   91.9927   
270   166.869   138.76   180.053   367.688   16.5418   8.61284   72.985   90.8155   
275   184.858   135.337   175.797   367.688   8.39668   8.76185   72.2709   89.6745   
280   162.814   132.076   171.69   367.688   20.4151   8.89837   71.5898   88.5699   
285   171.21   128.908   167.731   367.688   13.5818   9.0175   70.9139   87.4984   
290   166.453   125.904   163.911   367.688   16.0302   9.13341   70.2754   86.4599   
295   367.54   122.974   160.226   367.672   0.0659657   9.2867   69.637   85.4532   
300   367.55   120.204   156.673   367.672   0.0624961   9.46816   69.0375   84.4763   
305   367.449   117.491   153.246   367.672   0.0845105   9.63919   68.4334   83.529   
310   367.499   115.138   150.335   367.672   0.0778314   9.87083   67.5357   80.5939   
315   367.527   112.668   146.906   367.672   0.0701631   10.0781   66.9693   79.7228   
320   367.555   110.291   143.61   367.672   0.0608188   10.2665   66.4356   78.8784   
325   367.587   108.027   140.434   367.672   0.0487753   10.4284   65.9169   78.0623   
330   367.587   105.855   137.381   367.672   0.0487413   10.5636   65.4169   77.2711   
335   366.989   103.776   134.441   367.672   0.139694   10.8775   64.9332   76.5044   
340   366.681   101.782   131.612   367.672   0.144444   11.2774   64.466   75.7616   
345   366.237   99.8711   128.888   367.672   0.144734   11.678   64.0142   75.0421   
350   365.942   98.0386   126.266   367.672   0.145016   12.0795   63.5776   74.3446   
355   365.151   96.2817   123.741   367.672   0.145295   12.4818   63.1552   73.6684   
360   363.975   94.596   121.309   367.672   0.145564   12.8848   62.747   73.0132   
365   362.439   92.979   118.966   367.672   0.141253   13.2886   62.3522   72.3779   
370   355.108   91.4272   116.71   367.669   0.146083   13.6931   61.9703   71.7617   
375   350.092   89.9377   114.535   367.669   0.146334   14.0984   61.601   71.1646   
380   358.948   88.5078   112.44   367.669   0.146578   14.5043   61.2437   70.5855   
385   220.451   87.1347   110.421   367.669   0.376   14.9109   60.8981   70.0239   
390   143.179   85.7829   108.469   361.89   0.395112   15.5648   58.0239   67.812   
395   143.179   84.3552   106.364   349.803   0.395112   15.9624   57.7176   67.2995   
400   143.179   82.9864   104.399   338.308   0.395112   16.36   57.423   66.8043   
405   143.179   81.674   102.516   327.289   0.395112   16.7576   57.1397   66.3204   
410   143.179   80.4156   100.691   316.733   0.395112   17.1552   56.8672   65.859   
415   143.179   79.2088   98.9529   306.621   0.395112   17.5528   56.605   65.4075   
420   143.179   78.0515   97.2761   296.932   0.395112   17.9504   56.3528   64.9737   
425   143.179   76.9414   95.668   287.646   0.395112   18.348   56.1103   64.5522   
430   143.179   75.8766   94.1204   278.748   0.395112   18.7456   55.877   64.1446   
435   143.179   74.8552   92.6323   270.218   0.395112   19.1432   55.6525   63.7496   
440   143.179   73.8751   91.2011   262.041   0.395112   19.5408   55.4367   63.3668   
445   143.179   72.9347   89.8239   254.201   0.395112   19.9384   55.2291   62.996   
450   143.179   72.0323   88.4986   246.683   0.395112   20.336   55.0294   62.6368   
455   143.179   71.1663   87.2232   239.472   0.395112   20.7336   54.8373   62.2886   
460   143.179   70.6194   86.9717   238.066   0.000174058   20.8132   58.5687   -13025.2   
465   143.179   70.0969   86.9717   238.066   0.000174058   20.8134   58.3787   -27642   
470   143.179   69.5891   86.9619   238.066   0.000174058   20.8136   58.1933   77.2854   
475   143.179   69.0955   86.9619   238.066   0.000174058   20.8137   58.0123   84.7526   
480   143.179   68.6156   86.9619   238.066   0.000174058   20.8139   57.8356   84.7879   
485   143.179   68.1489   86.9619   238.066   0.000174058   20.814   57.6633   84.8249   
490   143.179   67.6952   86.9619   238.066   0.000174058   20.8142   57.4951   84.8709   
495   143.179   67.2539   86.9619   238.066   0.000174058   20.8144   57.331   84.9252   
500   143.179   66.8249   86.9619   238.066   0.000174058   20.8146   57.1707   84.981   

Função objetivo mínima: 158.466
Parâmetros otimizados:
Dp = 3.96541
Le = 4.95812
zd = 0.874519
eps = 0.363032
mhc = 0.895853
mhl = 1.01814
mhe = 3.27521
Numero de iterações = 20
Numero de particulas = 100

Pico de vazao de vapor [t/h] = 29.0428
Agua total adicionada [kg] = 538934
Vapor total gerado [kg] = 20503.5
Agua acumulada no leito [kg] = 479855
balanco [kg] = 38576.1
errobalanco [%] = 7.15784

Tempo: 72555 s
